File: images/spectra/ManuelaSchiek/2021-07-05 NoP PMMA 40mgmL med speed INT_1.txt
NoP PMMA 40mgmL
Wavelength (nm)	Intensity
191.458	0.011020
193.054	0.007302
194.65	0.005126
196.247	0.004224
197.843	0.003683
199.44	0.003217
201.036	0.002553
202.633	0.002180
204.23	0.002335
205.827	0.002216
207.424	0.002084
209.021	0.002052
210.618	0.001915
212.215	0.001886
213.812	0.002185
215.41	0.001921
217.007	0.001991
218.604	0.001999
220.202	0.001927
221.799	0.001708
223.397	0.001721
224.995	0.001547
226.592	0.001668
228.19	0.001646
229.788	0.001631
231.386	0.001507
232.984	0.001495
234.582	0.001433
236.18	0.001360
237.778	0.001354
239.377	0.001308
240.975	0.001357
242.573	0.001341
244.172	0.001406
245.77	0.001655
247.369	0.001551
248.967	0.001690
250.566	0.001883
252.165	0.001858
253.763	0.002045
255.362	0.001948
256.961	0.002020
258.56	0.002099
260.159	0.002387
261.758	0.002338
263.357	0.002603
264.956	0.002588
266.555	0.002708
268.155	0.002932
269.754	0.003015
271.353	0.003115
272.953	0.003232
274.552	0.003518
276.152	0.003480
277.751	0.003593
279.351	0.003857
280.95	0.003791
282.55	0.004108
284.15	0.004180
285.749	0.004251
287.349	0.004641
288.949	0.004592
290.549	0.005466
292.149	0.007351
293.749	0.010782
295.349	0.015112
296.949	0.021510
298.549	0.030644
300.149	0.041498
301.749	0.055886
303.349	0.073605
304.95	0.095524
306.55	0.120716
308.15	0.150997
309.75	0.183385
311.351	0.218049
312.951	0.255303
314.552	0.293122
316.152	0.331906
317.753	0.371504
319.353	0.411260
320.954	0.447780
322.554	0.485725
324.155	0.528568
325.756	0.559150
327.356	0.580794
328.957	0.607701
330.558	0.636043
332.159	0.661332
333.759	0.683202
335.36	0.702990
336.961	0.722071
338.562	0.737636
340.163	0.750537
341.764	0.764011
343.365	0.774612
344.966	0.783147
346.567	0.792266
348.168	0.798800
349.769	0.804552
351.37	0.811107
352.971	0.813922
354.572	0.819577
356.173	0.822858
357.774	0.827523
359.376	0.829617
360.977	0.832882
362.578	0.835468
364.179	0.837583
365.78	0.839364
367.382	0.841367
368.983	0.842951
370.584	0.844376
372.185	0.843476
373.787	0.845098
375.388	0.844665
376.989	0.844658
378.591	0.843183
380.192	0.843335
381.793	0.842945
383.395	0.843531
384.996	0.845056
386.597	0.846836
388.199	0.847461
389.8	0.848819
391.402	0.850049
393.003	0.851364
394.604	0.852165
396.206	0.853171
397.807	0.853289
399.409	0.854256
401.01	0.854772
402.612	0.854675
404.213	0.855737
405.815	0.854859
407.416	0.855067
409.017	0.856461
410.619	0.855401
412.22	0.856228
413.822	0.855126
415.423	0.855423
417.025	0.855837
418.626	0.855946
420.227	0.856739
421.829	0.855843
423.43	0.856987
425.032	0.857078
426.633	0.856506
428.235	0.856546
429.836	0.856729
431.437	0.856605
433.039	0.857029
434.64	0.857297
436.241	0.857930
437.843	0.858031
439.444	0.858120
441.046	0.858013
442.647	0.858724
444.248	0.858796
445.849	0.858993
447.451	0.859422
449.052	0.859811
450.653	0.859942
452.255	0.859991
453.856	0.860091
455.457	0.860929
457.058	0.861264
458.659	0.860705
460.261	0.861501
461.862	0.861581
463.463	0.861506
465.064	0.861913
466.665	0.862431
468.266	0.862361
469.867	0.861874
471.468	0.862154
473.069	0.862567
474.67	0.862902
476.271	0.863466
477.872	0.863269
479.473	0.863274
481.074	0.863010
482.675	0.863126
484.276	0.864008
485.876	0.863894
487.477	0.864043
489.078	0.863926
490.679	0.864107
492.279	0.864046
493.88	0.863648
495.481	0.864232
497.081	0.864626
498.682	0.864759
500.282	0.864386
501.883	0.865266
503.483	0.865446
505.084	0.865252
506.684	0.865562
508.285	0.866122
509.885	0.865762
511.485	0.866134
513.086	0.865905
514.686	0.866890
516.286	0.867088
517.886	0.866111
519.486	0.866937
521.086	0.867202
522.687	0.867576
524.287	0.867606
525.887	0.867599
527.486	0.867936
529.086	0.867917
530.686	0.868571
532.286	0.868500
533.886	0.869164
535.485	0.869158
537.085	0.868832
538.685	0.869430
540.284	0.869715
541.884	0.870054
543.483	0.869497
545.083	0.870055
546.682	0.870043
548.282	0.870241
549.881	0.870451
551.48	0.870711
553.079	0.870684
554.679	0.870902
556.278	0.870697
557.877	0.870856
559.476	0.871143
561.075	0.870940
562.673	0.870613
564.272	0.871507
565.871	0.871170
567.47	0.870674
569.068	0.871354
570.667	0.871464
572.266	0.871332
573.864	0.871616
575.463	0.871742
577.061	0.871730
578.659	0.871385
580.258	0.871896
581.856	0.871772
583.454	0.871848
585.052	0.871954
586.65	0.871677
588.248	0.871787
589.846	0.871935
591.444	0.872075
593.042	0.871561
594.639	0.871733
596.237	0.871524
597.834	0.871579
599.432	0.871426
601.029	0.871401
602.627	0.871430
604.224	0.871072
605.821	0.871280
607.419	0.870774
609.016	0.871044
610.613	0.870941
612.21	0.870310
613.807	0.870585
615.403	0.870230
617	0.870022
618.597	0.870170
620.193	0.870148
621.79	0.869953
623.386	0.869994
624.983	0.869796
626.579	0.868974
628.175	0.869432
629.771	0.869592
631.367	0.869630
632.963	0.869938
634.559	0.869353
636.155	0.869277
637.751	0.869211
639.347	0.869654
640.942	0.868915
642.538	0.868696
644.133	0.869324
645.728	0.868996
647.324	0.868960
648.919	0.869727
650.514	0.869188
652.109	0.869050
653.704	0.868928
655.299	0.868805
656.893	0.868372
658.488	0.867495
660.083	0.867688
661.677	0.868323
663.272	0.868876
664.866	0.868137
666.46	0.868702
668.054	0.868868
669.648	0.868133
671.242	0.868280
672.836	0.869007
674.43	0.869062
676.024	0.868943
677.617	0.868708
679.211	0.868308
680.804	0.868766
682.397	0.868754
683.99	0.868443
685.584	0.868328
687.177	0.868409
688.769	0.867892
690.362	0.868215
691.955	0.868238
693.548	0.868535
695.14	0.867781
696.733	0.868378
698.325	0.868635
699.917	0.868057
701.509	0.868518
703.101	0.868440
704.693	0.868511
706.285	0.867873
707.877	0.868145
709.468	0.868284
711.06	0.868483
712.651	0.868834
714.242	0.868905
715.833	0.868670
717.424	0.868382
719.015	0.868190
720.606	0.868202
722.197	0.867504
723.788	0.867415
725.378	0.867156
726.968	0.867776
728.559	0.868147
730.149	0.867159
731.739	0.867700
733.329	0.867558
734.919	0.866828
736.508	0.866594
738.098	0.867188
739.688	0.867155
741.277	0.867024
742.866	0.866445
744.455	0.866859
746.044	0.866323
747.633	0.866616
749.222	0.867001
750.811	0.867371
752.399	0.866506
753.988	0.866860
755.576	0.866356
757.164	0.866518
758.752	0.866115
760.34	0.865634
761.928	0.865990
763.516	0.865804
765.103	0.865334
766.691	0.865370
768.278	0.865600
769.865	0.864962
771.452	0.864935
773.039	0.865430
774.626	0.865387
776.212	0.864488
777.799	0.864399
779.385	0.863971
780.972	0.864202
782.558	0.863911
784.144	0.863599
785.73	0.863914
787.315	0.863225
788.901	0.863274
790.487	0.863483
792.072	0.863497
793.657	0.863701
795.242	0.862649
796.827	0.863128
798.412	0.861708
799.997	0.862113
801.581	0.862411
803.166	0.862287
804.75	0.861847
806.334	0.861509
807.918	0.860786
809.502	0.861326
811.086	0.860378
812.669	0.860973
814.253	0.860482
815.836	0.860691
817.419	0.860402
819.002	0.860701
820.585	0.859677
822.167	0.860074
823.75	0.859615
825.332	0.859859
826.915	0.859433
828.497	0.859539
830.079	0.859339
831.661	0.859805
833.242	0.859417
834.824	0.858433
836.405	0.858544
837.986	0.858434
839.567	0.858247
841.148	0.859045
842.729	0.857879
844.31	0.857318
845.89	0.857927
847.47	0.858190
849.05	0.857803
850.63	0.857648
852.21	0.857770
853.79	0.857916
855.37	0.856989
856.949	0.856352
858.528	0.857432
860.107	0.857359
861.686	0.856632
863.265	0.856786
864.843	0.855928
866.422	0.856657
868	0.856302
869.578	0.855658
871.156	0.855588
872.734	0.856125
874.311	0.855903
875.889	0.854711
877.466	0.855173
879.043	0.855196
880.62	0.854954
882.197	0.855039
883.774	0.855008
885.35	0.854740
886.926	0.854287
888.502	0.854732
890.078	0.854032
891.654	0.854372
893.23	0.854256
894.805	0.855039
896.38	0.854965
897.955	0.854098
899.53	0.854904
901.105	0.853449
902.68	0.854008
904.254	0.854775
905.828	0.853843
907.402	0.853517
908.976	0.853531
910.55	0.853024
912.123	0.853956
913.697	0.853745
915.27	0.853836
916.843	0.853791
918.416	0.854413
919.988	0.853053
921.561	0.853454
923.133	0.853800
924.705	0.852574
926.277	0.852911
927.849	0.853919
929.42	0.852200
930.991	0.852549
932.563	0.852262
934.134	0.852356
935.704	0.853207
937.275	0.854258
938.845	0.852613
940.416	0.851071
941.986	0.854124
943.555	0.853220
945.125	0.853868
946.695	0.852280
948.264	0.853071
949.833	0.853289
951.402	0.852695
952.971	0.852583
954.539	0.853576
956.108	0.855053
957.676	0.854058
959.244	0.853340
960.811	0.853037
962.379	0.853226
963.946	0.853389
965.513	0.853846
967.08	0.854761
968.647	0.853727
970.214	0.853257
971.78	0.853455
973.346	0.852544
974.912	0.853509
976.478	0.853719
978.044	0.853559
979.609	0.854244
981.174	0.853975
982.739	0.853565
984.304	0.853825
985.868	0.853829
987.433	0.853628
988.997	0.854772
990.561	0.854648
992.125	0.853656
993.688	0.853177
995.251	0.852605
996.815	0.856494
998.378	0.854886
999.94	0.854388
1013.38	0.852541
1016.81	0.852949
1020.24	0.853967
1023.67	0.852243
1027.09	0.853064
1030.52	0.853621
1033.95	0.854234
1037.38	0.852773
1040.81	0.854140
1044.23	0.853389
1047.66	0.855235
1051.09	0.855983
1054.52	0.855565
1057.95	0.856085
1061.37	0.858330
1064.8	0.857232
1068.23	0.862863
1071.66	0.859244
1075.09	0.866601
1078.51	0.861325
1081.94	0.867820
1085.37	0.865351
1088.8	0.868743
1092.23	0.867857
1095.65	0.870359
1099.08	0.870550
1102.51	0.870289
1105.94	0.869996
1109.37	0.872409
1112.8	0.873054
1116.22	0.871447
1119.65	0.873237
1123.08	0.872378
1126.51	0.874411
1129.94	0.872195
1133.37	0.875468
1136.8	0.872439
1140.22	0.874168
1143.65	0.870933
1147.08	0.874218
1150.51	0.873731
1153.94	0.877201
1157.37	0.872461
1160.8	0.875751
1164.23	0.873018
1167.66	0.876356
1171.09	0.872916
1174.52	0.876583
1177.95	0.874008
1181.38	0.878150
1184.81	0.872687
1188.24	0.877779
1191.67	0.874368
1195.1	0.880067
1198.53	0.874357
1201.96	0.878595
1205.39	0.873828
1208.83	0.879008
1212.26	0.874615
1215.69	0.879597
1219.12	0.874899
1222.55	0.881968
1225.98	0.875462
1229.42	0.880374
1232.85	0.875667
1236.28	0.881044
1239.71	0.875375
1243.15	0.878744
1246.58	0.877020
1250.01	0.882467
1253.45	0.876999
1256.88	0.882453
1260.31	0.878035
1263.75	0.880881
1267.18	0.876939
1270.62	0.882282
1274.05	0.877224
1277.49	0.883806
1280.92	0.877719
1284.36	0.882972
1287.79	0.878418
1291.23	0.885019
1294.66	0.878783
1298.1	0.886193
1301.54	0.880966
1304.97	0.888213
1308.41	0.879366
1311.85	0.886410
1315.28	0.879963
1318.72	0.888030
1322.16	0.879111
1325.6	0.888479
1329.04	0.881991
1332.48	0.889930
1335.91	0.879953
1339.35	0.888580
1342.79	0.882651
1346.23	0.888402
1349.67	0.884836
1353.11	0.889185
1356.55	0.888721
1360	0.885618
1363.44	0.892179
1366.88	0.879424
1370.32	0.889956
1373.76	0.882562
1377.2	0.891757
1380.65	0.876488
1384.09	0.880664
1387.53	0.876117
1390.98	0.883170
1394.42	0.877201
1397.87	0.886556
1401.31	0.877384
1404.76	0.890411
1408.2	0.877249
1411.65	0.894113
1415.09	0.883701
1418.54	0.893749
1421.99	0.884837
1425.43	0.894125
1428.88	0.886608
1432.33	0.894052
1435.78	0.886550
1439.22	0.894441
1442.67	0.885120
1446.12	0.894573
1449.57	0.885468
1453.02	0.897041
1456.47	0.887538
1459.92	0.897444
1463.37	0.887670
1466.83	0.898817
1470.28	0.886096
1473.73	0.896563
1477.18	0.887653
1480.64	0.897878
1484.09	0.886069
1487.54	0.898462
1491	0.880757
1494.45	0.897354
1497.91	0.883814
1501.36	0.897956
1504.82	0.883847
1508.28	0.895770
1511.73	0.884914
1515.19	0.897436
1518.65	0.880697
1522.11	0.890005
1525.56	0.883575
1529.02	0.892142
1532.48	0.883475
1535.94	0.886367
1539.4	0.885873
1542.87	0.889134
1546.33	0.887833
1549.79	0.883482
1553.25	0.886805
1556.71	0.887820
1560.18	0.888513
1563.64	0.885383
1567.11	0.888234
1570.57	0.885677
1574.04	0.890253
1577.5	0.889009
1580.97	0.889866
1584.43	0.887113
1587.9	0.888603
1591.37	0.888168
1594.84	0.888518
1598.31	0.888373
1601.78	0.890122
1605.25	0.887963
1608.72	0.888885
1612.19	0.887701
1615.66	0.890591
1619.13	0.886575
1622.6	0.889318
1626.08	0.886027
1629.55	0.888639
1633.02	0.889098
1636.5	0.890196
1639.97	0.890922
1643.45	0.889575
1646.93	0.891157
1650.4	0.889882
1653.88	0.892332
1657.36	0.890586
1660.84	0.889440
1664.32	0.890131
1667.8	0.890493
1671.28	0.886728
1674.76	0.888584
1678.24	0.890152
1681.72	0.890983
1685.2	0.892297
1688.69	0.890076